Folder: AraSim/data/antennas/impedance

Note: data/antennas/impedance/ARA_BVpol_MohammadData_2024.txt
Freq (MHz) 	 Real[Z] (Ohm) 	 Imag[Z] (Ohm)
  83.33 	         4.29 	          -3.98
 100.00 	         1.83 	          15.15
 116.67 	        22.03 	          33.78
 133.33 	         6.10 	          77.05
 150.00 	        56.49 	         178.58
 166.67 	       126.01 	        -140.75
 183.33 	        49.69 	         -51.83
 200.00 	        48.81 	         -23.47
 216.67 	        49.01 	         -28.00
 233.33 	        41.28 	         -25.89
 250.00 	        26.27 	         -23.15
 266.67 	        18.20 	          -7.13
 283.33 	        18.86 	           1.25
 300.00 	        17.01 	          16.74
 316.67 	        21.51 	          33.16
 333.33 	        36.27 	          53.15
 350.00 	        66.05 	          75.83
 366.67 	       174.03 	          67.77
 383.33 	       130.73 	         -95.71
 400.00 	        50.03 	         -76.01
 416.67 	        22.18 	         -48.85
 433.33 	        14.61 	         -26.87
 450.00 	        12.23 	         -11.66
 466.67 	        10.67 	           1.74
 483.33 	        11.83 	          16.13
 500.00 	        16.49 	          32.20
 516.67 	        25.98 	          52.21
 533.33 	        56.30 	          82.20
 550.00 	       143.48 	          86.68
 566.67 	       164.39 	         -63.68
 583.33 	        67.19 	         -77.08
 600.00 	        35.78 	         -51.47
 616.67 	        24.56 	         -32.92
 633.33 	        19.86 	         -18.83
 650.00 	        17.74 	          -7.62
 666.67 	        16.44 	           2.85
 683.33 	        16.85 	          15.02
 700.00 	        20.19 	          28.67
 716.67 	        27.41 	          45.64
 733.33 	        46.08 	          70.67
 750.00 	       108.64 	          98.85
 766.67 	       212.96 	         -24.30
 783.33 	        89.56 	         -99.58
 800.00 	        35.22 	         -67.71
 816.67 	        20.18 	         -41.63
 833.33 	        14.16 	         -24.28
 850.00 	        11.88 	          -9.62
 866.67 	        11.57 	           2.73
 883.33 	        12.77 	          15.67
 900.00 	        15.63 	          29.55
 916.67 	        22.95 	          49.55
 933.33 	        42.21 	          75.11
 950.00 	       106.55 	         115.72
 966.67 	       231.32 	         -20.80
 983.33 	        87.67 	        -105.23
1000.00 	        35.58 	         -69.49

Note: data/antennas/impedance/ARA_Hpol_MohammadData_2024.txt
Freq (MHz) 	 Real[Z] (Ohm) 	 Imag[Z] (Ohm)
  83.33 	         4.01 	          26.41
 100.00 	        10.24 	          67.78
 116.67 	        52.17 	         125.38
 133.33 	        84.80 	        -379.05
 150.00 	         4.99 	         -79.90
 166.67 	         3.46 	         -31.60
 183.33 	         2.91 	          -5.74
 200.00 	         5.61 	          17.43
 216.67 	        14.56 	          45.62
 233.33 	        52.47 	          87.97
 250.00 	       181.93 	          21.21
 266.67 	        80.60 	         -65.46
 283.33 	        38.83 	         -39.42
 300.00 	        28.36 	         -18.65
 316.67 	        26.29 	          -2.99
 333.33 	        29.72 	          10.46
 350.00 	        39.40 	          22.01
 366.67 	        56.24 	          26.22
 383.33 	        72.43 	          15.73
 400.00 	        73.77 	          -3.13
 416.67 	        63.74 	         -13.01
 433.33 	        52.35 	         -13.32
 450.00 	        45.91 	          -8.61
 466.67 	        43.68 	          -2.36
 483.33 	        44.60 	           1.60
 500.00 	        46.11 	           6.50
 516.67 	        49.70 	          10.31
 533.33 	        57.67 	          12.94
 550.00 	        67.74 	           7.32
 566.67 	        69.11 	          -7.05
 583.33 	        59.04 	         -16.38
 600.00 	        47.28 	         -15.71
 616.67 	        39.39 	          -9.09
 633.33 	        36.10 	           0.46
 650.00 	        37.93 	          11.87
 666.67 	        47.42 	          22.59
 683.33 	        67.87 	          28.60
 700.00 	        94.29 	           7.52
 716.67 	        83.51 	         -30.55
 733.33 	        52.40 	         -37.79
 750.00 	        33.62 	         -25.44
 766.67 	        25.85 	         -11.40
 783.33 	        23.78 	           3.31
 800.00 	        27.29 	          18.51
 816.67 	        38.19 	          35.73
 833.33 	        68.75 	          50.58
 850.00 	       120.34 	          22.97
 866.67 	       102.11 	         -47.06
 883.33 	        52.78 	         -50.94
 900.00 	        30.99 	         -33.95
 916.67 	        23.71 	         -17.63
 933.33 	        21.31 	          -3.28
 950.00 	        23.05 	           9.91
 966.67 	        29.50 	          23.88
 983.33 	        43.59 	          37.77
1000.00 	        72.35 	          44.50

Note: data/antennas/impedance/Impedance_Custom4.txt
Freq (MHz) 	 Real[Z] (Ohm) 	 Imag[Z] (Ohm)
  83.33 	        50.00 	           0.00
 100.00 	        50.00 	           0.00
 116.67 	        50.00 	           0.00
 133.33 	        50.00 	           0.00
 150.00 	        50.00 	           0.00
 166.67 	        50.00 	           0.00
 183.33 	        50.00 	           0.00
 200.00 	        50.00 	           0.00
 216.67 	        50.00 	           0.00
 233.33 	        50.00 	           0.00
 250.00 	        50.00 	           0.00
 266.67 	        50.00 	           0.00
 283.33 	        50.00 	           0.00
 300.00 	        50.00 	           0.00
 316.67 	        50.00 	           0.00
 333.33 	        50.00 	           0.00
 350.00 	        50.00 	           0.00
 366.67 	        50.00 	           0.00
 383.33 	        50.00 	           0.00
 400.00 	        50.00 	           0.00
 416.67 	        50.00 	           0.00
 433.33 	        50.00 	           0.00
 450.00 	        50.00 	           0.00
 466.67 	        50.00 	           0.00
 483.33 	        50.00 	           0.00
 500.00 	        50.00 	           0.00
 516.67 	        50.00 	           0.00
 533.33 	        50.00 	           0.00
 550.00 	        50.00 	           0.00
 566.67 	        50.00 	           0.00
 583.33 	        50.00 	           0.00
 600.00 	        50.00 	           0.00
 616.67 	        50.00 	           0.00
 633.33 	        50.00 	           0.00
 650.00 	        50.00 	           0.00
 666.67 	        50.00 	           0.00
 683.33 	        50.00 	           0.00
 700.00 	        50.00 	           0.00
 716.67 	        50.00 	           0.00
 733.33 	        50.00 	           0.00
 750.00 	        50.00 	           0.00
 766.67 	        50.00 	           0.00
 783.33 	        50.00 	           0.00
 800.00 	        50.00 	           0.00
 816.67 	        50.00 	           0.00
 833.33 	        50.00 	           0.00
 850.00 	        50.00 	           0.00
 866.67 	        50.00 	           0.00
 883.33 	        50.00 	           0.00
 900.00 	        50.00 	           0.00
 916.67 	        50.00 	           0.00
 933.33 	        50.00 	           0.00
 950.00 	        50.00 	           0.00
 966.67 	        50.00 	           0.00
 983.33 	        50.00 	           0.00
1000.00 	        50.00 	           0.00

File: PVA_Impedance_2023.txt
Freq (MHz) 	 Real[Z] (Ohm) 	 Imag[Z] (Ohm)
  83.33 	       103.11 	        -178.59
 100.00 	        16.63 	         -27.01
 116.67 	        44.42 	          -7.16
 133.33 	        17.85 	           0.47
 150.00 	        20.85 	          39.64
 166.67 	       136.71 	          90.10
 183.33 	        46.14 	         -79.50
 200.00 	        13.97 	         -20.86
 216.67 	        11.35 	          11.93
 233.33 	        26.35 	          56.37
 250.00 	       186.85 	          28.62
 266.67 	        36.29 	         -53.04
 283.33 	        17.95 	          -8.77
 300.00 	        23.83 	          21.17
 316.67 	        61.51 	          44.88
 333.33 	        83.86 	         -14.36
 350.00 	        51.56 	          -9.12
 366.67 	        48.40 	         -11.33
 383.33 	        31.35 	          -2.38
 400.00 	        32.32 	          24.51
 416.67 	        77.50 	          43.25
 433.33 	        82.25 	         -34.07
 450.00 	        33.79 	         -19.77
 466.67 	        27.64 	           7.87
 483.33 	        44.61 	          32.30
 500.00 	        89.61 	          14.84
 516.67 	        57.29 	         -20.89
 533.33 	        40.85 	          -1.43
 550.00 	        49.74 	          12.42
 566.67 	        61.24 	           4.14
 583.33 	        49.85 	          -0.26
 600.00 	        50.92 	          12.55
 616.67 	        68.07 	           9.49
 633.33 	        60.36 	          -7.88
 650.00 	        50.20 	          -2.12
 666.67 	        51.43 	           3.14
 683.33 	        51.57 	           4.35
 700.00 	        51.81 	          10.49
 716.67 	        65.73 	          15.97
 733.33 	        79.51 	          -7.67
 750.00 	        51.04 	         -21.33
 766.67 	        34.21 	          -2.53
 783.33 	        38.48 	          22.33
 800.00 	        74.87 	          41.33
 816.67 	       103.73 	         -24.97
 833.33 	        45.00 	         -32.38
 850.00 	        30.92 	          -5.46
 866.67 	        35.17 	          18.69
 883.33 	        64.08 	          39.76
 900.00 	       113.40 	          -0.29
 916.67 	        63.98 	         -41.12
 933.33 	        33.90 	         -20.07
 950.00 	        29.39 	           6.45
 966.67 	        43.71 	          35.46
 983.33 	       110.78 	          35.29
1000.00 	        83.84 	         -53.64